Folder: Edison/RawDataFetcher/RawData

Note: README.md
# Edison

An algo. The strategy – "VSEB" – which originally stood for "Volume Spike 
End of Day Buy" has gone through so many different iterations that now the 
actual strategy does not resemble this at all. In fact, it is now a 
relatively simple short strategy. I've backtested so many different 
variations of this strategy, with all sorts of different parameters, that 
I'm convinced this is close to if not the optimal variant. I have not a 
done a multiple regression to better test this hypothesis, however.

As mentioned earlier, this project changed so much and is so different 
from what it was at different stages, it would be impossible to even 
summarize such changes here. Instead, this is a summary of how the current 
strategy works. Going through past commits as well as looking at the 
commented out code can give you an insight into previous versions of the 
project.

## The strategy
The basic strategy is now simply that VSEB detects when a certain stock 
(whose price is less than 20 dollars) has a very modest (statistically 
speaking) volume increase on the day (only 1% of the running 6 month 
standard deviation above it's mean) but has a significant price increase 
(I think it's currently set for about 20% higher than yesterday close, or 
something around there anyway). We then short that stock with a stop loss 
of 1.5% and no take profit. Assuming the stock doesn't hit that stop loss 
price, we cover 5 market days later at end of day.

In order to avoid getting margin called over the maintenance margin amount 
alpaca demands (which can be very high) this strategy is actually a day 
trading strategy. Any asset we intend to hold "overnight" I simply sell 
(or cover in this case) at market close and re-buy (or re-short in this 
case) at market open. Although this means we miss out on after-hours and 
pre-market gains/losses this usually doesn't amount to much and actually 
makes the entire strategy much safer as the stop-losses will trigger (and 
usually execute) pretty quickly.

Further, there are various mechanisms in place to make sure this algorithm 
continues running at all costs and alerts me immediately should it 
encounter an error or is forced to stop running. The algo will 
automatically adjust to failed trades, cancelled orders, price spikes 
which exceed the speed at which we can place a stop loss, etc. I get a 
phone call, an email, and a text message should the algorithm encounter an 
error which it can fix, as well as when it encounters one it cannot fix 
itself. In the ladder case, however, it automatically liquidates 
everything and cancels all open orders before shutting itself off.

## Final Notes
Has only been tested with clang++ on mac and linux (ubuntu). Best way to 
compile is with bazel. Edison is the name of the entire project (inlcuding 
the program which backtests, the one that cleans and fetches the raw data, 
etc.), VSEB is this strategy specifically. Has only been backtested with 
data spanning  ~2018 – ~2020 

File: TGA 2.csv
Date, Open, Close, High, Low, Volume
2018-01-02,1.470000,1.460000,1.480000,1.440000,54844
2018-01-05,1.440000,1.440000,1.440000,1.400000,95634
2018-01-10,1.420000,1.445000,1.460000,1.420000,93553
2018-01-16,1.480000,1.450000,1.490000,1.430000,90931
2018-01-19,1.470000,1.480000,1.490000,1.450000,33131
2018-01-24,1.460000,1.460000,1.480000,1.450000,56209
2018-01-29,1.490000,1.480000,1.500000,1.460000,58150
2018-02-01,1.470000,1.470000,1.470000,1.440000,56751
2018-02-06,1.400000,1.390000,1.400200,1.360000,92306
2018-02-09,1.320000,1.260000,1.320000,1.240000,82433
2018-02-14,1.330000,1.330000,1.350000,1.300000,38996
2018-02-20,1.310000,1.330000,1.330000,1.310000,28180
2018-02-23,1.310000,1.320000,1.330000,1.280000,9143
2018-02-28,1.299000,1.300000,1.320000,1.260000,69626
2018-03-05,1.250000,1.285000,1.290000,1.240000,49261
2018-03-08,1.310000,1.280000,1.310000,1.270000,159908
2018-03-13,1.300000,1.340000,1.340000,1.300000,42649
2018-03-16,1.330000,1.320000,1.350000,1.310000,25815
2018-03-21,1.340000,1.410000,1.410000,1.340000,41104
2018-03-26,1.460000,1.380000,1.460000,1.380000,19342
2018-03-29,1.330000,1.340000,1.350000,1.306400,47336
2018-04-04,1.310000,1.320000,1.320000,1.290000,10913
2018-04-09,1.290000,1.268200,1.330000,1.250000,132761
2018-04-12,1.310000,1.360000,1.360000,1.300000,69719
2018-04-17,1.390000,1.400000,1.420000,1.370000,130352
2018-04-20,1.480000,1.609000,1.610000,1.480000,147067
2018-04-25,1.570000,1.630000,1.660000,1.550000,87508
2018-04-30,1.710000,1.799200,1.800000,1.670000,262190
2018-05-03,1.870000,1.929000,1.940000,1.850000,142768
2018-05-08,1.960000,1.990000,2.050000,1.910000,301654
2018-05-11,2.010000,1.911000,2.010000,1.780000,358268
2018-05-16,1.960000,1.959900,2.040000,1.930000,294650
2018-05-21,2.380000,2.640000,2.840000,2.350000,1765615
2018-05-24,2.400000,2.305000,2.450800,2.290000,375035
2018-05-30,2.280000,2.490000,2.490000,2.260100,458505
2018-06-04,2.470000,2.415000,2.520000,2.370000,397504
2018-06-07,2.490000,2.430000,2.520000,2.410000,260721
2018-06-12,2.350000,2.400000,2.479900,2.350000,265201
2018-06-15,2.300000,2.240000,2.309000,2.240000,408218
2018-06-20,2.400000,2.370000,2.430000,2.347500,183621
2018-06-25,2.360000,2.420000,2.430000,2.320100,154686
2018-06-28,2.650000,2.715900,2.840000,2.650000,719359
2018-07-03,2.760000,2.860000,3.030000,2.756100,906256
2018-07-09,2.980000,3.295000,3.300000,2.950000,1300903
2018-07-12,3.890000,3.750000,3.890000,3.660000,1350477
2018-07-17,3.740000,3.531000,3.740000,3.520000,985484
2018-07-20,3.600000,3.430000,3.610000,3.393200,586761
2018-07-25,3.370000,3.360000,3.460000,3.310000,341913
2018-07-30,3.180000,3.130000,3.230000,3.110000,314386
2018-08-02,3.230000,3.160000,3.270000,3.120200,231935
2018-08-07,3.100000,3.190000,3.280000,3.100000,273496
2018-08-10,3.200000,3.200000,3.230000,3.140000,342762
2018-08-15,3.110000,2.930000,3.120000,2.830000,696395
2018-08-20,3.100000,3.324800,3.380000,3.100000,425229
2018-08-23,3.500000,3.420000,3.500000,3.250000,516225
2018-08-28,3.430000,3.440000,3.530000,3.420000,269919
2018-08-31,3.360000,3.370000,3.390000,3.310000,135258
2018-09-06,3.280000,3.240000,3.350000,3.180000,243600
2018-09-11,3.600000,3.730000,3.810000,3.521000,777431
2018-09-14,3.510000,3.640000,3.680000,3.510000,194026
2018-09-19,3.400000,3.400000,3.410000,3.350000,180825
2018-09-24,3.310000,3.440000,3.480000,3.310000,430315
2018-09-27,3.350000,3.300000,3.350000,3.280000,392827
2018-10-02,3.500000,3.480000,3.560000,3.450000,439185
2018-10-05,3.310000,3.320000,3.360000,3.107500,1355120
2018-10-10,3.360000,3.180000,3.370000,3.160000,434236
2018-10-15,3.100000,3.028200,3.150000,3.000000,555612
2018-10-18,3.050000,3.010000,3.075000,2.950000,671123
2018-10-23,2.520000,2.040000,2.600000,2.020000,2566173
2018-10-26,2.400000,2.445000,2.510000,2.380000,362449
2018-10-31,2.330000,2.310000,2.420000,2.300000,201995
2018-11-05,2.360000,2.370000,2.420000,2.300000,218215
2018-11-08,2.300000,2.220000,2.370000,2.140000,340963
2018-11-13,2.100000,2.420000,2.470000,2.070000,490769
2018-11-16,2.220000,2.240000,2.260000,2.120000,141107
2018-11-21,2.160000,2.220000,2.230000,2.150000,123520
2018-11-27,2.140000,2.010000,2.170000,1.970000,240834
2018-11-30,2.130000,2.160000,2.170000,2.100000,137046
2018-12-06,2.110000,1.957500,2.150600,1.920000,269269
2018-12-11,1.850000,1.900000,1.910000,1.820000,110657
2018-12-14,1.850000,1.780000,1.877300,1.770000,77537
2018-12-19,1.710000,1.670000,1.750000,1.640000,183185
2018-12-24,1.550000,1.505000,1.570000,1.500000,151128
2018-12-28,1.680000,1.690000,1.730000,1.630000,100915
2019-01-03,1.850000,1.890000,1.890000,1.760000,67510
2019-01-08,2.090000,2.040000,2.090000,1.980000,64655
2019-01-11,2.030000,1.990000,2.030000,1.970000,34896
2019-01-16,1.960000,1.950000,2.000000,1.930000,78850
2019-01-22,1.800000,1.765000,1.885800,1.750000,103417
2019-01-25,1.820000,1.860000,1.880000,1.770000,42688
2019-01-30,1.720000,1.830000,1.845000,1.720000,163100
2019-02-04,1.930000,1.920000,1.949900,1.863100,29760
2019-02-07,1.920000,1.870000,1.940000,1.828800,22655
2019-02-12,1.880000,1.900000,1.920000,1.850000,40995
2019-02-15,2.030000,2.090000,2.120000,2.030000,129579
2019-02-25,2.070000,2.030000,2.089000,2.020000,54836
2019-02-28,2.030000,1.980000,2.050000,1.980000,72623
2019-03-05,2.000000,2.080000,2.140000,2.000000,63332
2019-03-08,2.020000,2.020000,2.060000,1.980000,58508
2019-03-13,2.110000,2.070000,2.160000,2.060000,94321
2019-03-18,2.070000,2.160000,2.190000,2.069700,135211
2019-03-21,2.130000,2.090000,2.160000,2.090000,118295
2019-03-26,1.870000,1.750000,1.900000,1.720000,434779
2019-03-29,1.900000,1.890000,1.910000,1.890000,1801
2019-04-03,1.870000,1.800000,1.870000,1.790000,74117
2019-04-08,1.850000,1.880000,1.910000,1.850000,97706
2019-04-11,1.880000,1.880000,1.970000,1.860000,83965
2019-04-16,1.860000,1.860000,1.886700,1.840000,65971
2019-04-22,1.900000,1.950000,2.010000,1.900000,134700
2019-04-25,1.920000,1.930000,1.949900,1.903900,68083
2019-04-30,1.950000,1.965000,1.970000,1.920000,53980
2019-05-03,1.900000,1.880000,1.900000,1.840000,160382
2019-05-08,1.820000,1.820000,1.860000,1.820000,60575
2019-05-13,1.790000,1.770000,1.800000,1.750000,78067
2019-05-16,1.760000,1.760000,1.790000,1.750000,68070
2019-05-21,1.680000,1.670000,1.720000,1.660000,115703
2019-05-24,1.520000,1.520000,1.590000,1.490000,136947
2019-05-30,1.530000,1.520000,1.550000,1.500000,89826
2019-06-05,1.540000,1.530000,1.540000,1.500000,101304
2019-06-10,1.540000,1.480000,1.559100,1.470000,186908
2019-06-13,1.440000,1.450000,1.480000,1.440000,79668
2019-06-18,1.430000,1.440000,1.460000,1.410000,61448
2019-06-21,1.410000,1.410000,1.440000,1.410000,338098
2019-06-26,1.410000,1.420000,1.450000,1.370000,209732
2019-07-01,1.390000,1.400000,1.440000,1.390000,52285
2019-07-05,1.370000,1.350000,1.370000,1.340000,62604
2019-07-10,1.380000,1.450000,1.460000,1.380000,416891
2019-07-15,1.470000,1.480000,1.500000,1.460000,73794
2019-07-18,1.440000,1.440000,1.450000,1.430000,100794
2019-07-23,1.450000,1.450000,1.460000,1.430000,21850
2019-07-26,1.410000,1.380000,1.410000,1.360000,86966
2019-07-31,1.490000,1.550000,1.553100,1.465000,193370
2019-08-05,1.440000,1.460000,1.480000,1.400000,111577
2019-08-08,1.440000,1.430000,1.460000,1.410000,125623
2019-08-13,1.470000,1.520000,1.550000,1.460000,209710
2019-08-16,1.450000,1.470000,1.490000,1.400000,106630
2019-08-21,1.420000,1.430000,1.470000,1.420000,25879
2019-08-26,1.370000,1.330000,1.380000,1.320000,108731
2019-08-29,1.330000,1.350000,1.360000,1.310000,139207
2019-09-04,1.350000,1.330000,1.370000,1.330000,267881
2019-09-09,1.410000,1.440000,1.460000,1.410000,126830
2019-09-12,1.490000,1.420000,1.490000,1.411600,219307
2019-09-17,1.510000,1.450000,1.520000,1.430000,140189
2019-09-20,1.480000,1.420000,1.480000,1.400000,199775
2019-09-25,1.380000,1.360000,1.400000,1.360000,78351
2019-09-30,1.330000,1.320000,1.350000,1.310600,107320
2019-10-03,1.280000,1.270000,1.280000,1.260000,124137
2019-10-08,1.350000,1.300000,1.350000,1.290000,191702
2019-10-11,1.280000,1.280000,1.330000,1.263000,567218
2019-10-16,1.290000,1.260000,1.320000,1.260000,121498
2019-10-21,1.260000,1.250000,1.270000,1.240000,45188
2019-10-24,1.240000,1.220000,1.270000,1.220000,120646
2019-10-29,1.190000,1.185000,1.210000,1.170000,227947
2019-11-01,1.160000,1.160000,1.220000,1.150000,157198
2019-11-06,1.270000,1.230000,1.270000,1.210000,56431
2019-11-11,1.220000,1.210000,1.230000,1.200000,77328
2019-11-14,1.170000,1.170000,1.210000,1.160000,40829
2019-11-19,1.110000,1.120000,1.145000,1.110000,266806
2019-11-22,1.150000,1.140000,1.170000,1.130000,106551
2019-11-27,1.160000,1.140000,1.170000,1.140000,73940
2019-12-03,1.120000,1.130000,1.130000,1.117000,27503
2019-12-06,1.160000,1.190000,1.200000,1.150000,159690
2019-12-11,1.180000,1.190000,1.190000,1.170000,70974
2019-12-16,1.270000,1.280000,1.320000,1.260000,183658
2019-12-19,1.350000,1.380000,1.383300,1.320000,326358
2019-12-24,1.490000,1.450000,1.490000,1.450000,59939
2019-12-30,1.440000,1.480000,1.490000,1.433000,176866
2020-01-03,1.490000,1.450000,1.500000,1.417700,252575

File: TGA.csv
Date, Open, Close, High, Low, Volume
2018-01-02T05:00:00Z,1.470000,1.460000,1.480000,1.440000,54845
2018-01-08T05:00:00Z,1.440000,1.440000,1.440000,1.420000,119269
2018-01-12T05:00:00Z,1.490000,1.470000,1.490000,1.450000,137980
2018-01-19T05:00:00Z,1.470000,1.480000,1.490000,1.450000,33351
2018-01-25T05:00:00Z,1.460000,1.480000,1.500000,1.460000,60995
2018-01-31T05:00:00Z,1.400000,1.470000,1.480000,1.380000,118619
2018-02-06T05:00:00Z,1.400000,1.400000,1.400200,1.360000,93431
2018-02-12T05:00:00Z,1.270000,1.330000,1.330000,1.270000,70321
2018-02-16T05:00:00Z,1.300000,1.320000,1.350000,1.300000,39746
2018-02-23T05:00:00Z,1.290000,1.320000,1.320000,1.280000,9757
2018-03-01T05:00:00Z,1.338800,1.290000,1.338800,1.280000,14278
2018-03-07T05:00:00Z,1.300000,1.280000,1.320000,1.270000,64872
2018-03-13T04:00:00Z,1.300000,1.340000,1.340000,1.300000,44166
2018-03-19T04:00:00Z,1.320000,1.340000,1.350000,1.320000,27726
2018-03-23T04:00:00Z,1.460000,1.450000,1.460000,1.420100,33225
2018-03-29T04:00:00Z,1.329000,1.340000,1.350000,1.306400,47836
2018-04-05T04:00:00Z,1.310000,1.260000,1.330000,1.250000,273199
2018-04-11T04:00:00Z,1.290000,1.320000,1.340000,1.290000,91766
2018-04-17T04:00:00Z,1.390000,1.400000,1.420000,1.370000,131029
2018-04-23T04:00:00Z,1.600000,1.570000,1.600000,1.531000,136591
2018-04-27T04:00:00Z,1.740000,1.650000,1.750000,1.630000,241543
2018-05-03T04:00:00Z,1.830000,1.830000,1.830000,1.830000,0
2018-05-09T04:00:00Z,2.020000,2.120000,2.140000,2.020000,620575
2018-05-15T04:00:00Z,1.930000,1.950000,2.020000,1.900000,367486
2018-05-21T04:00:00Z,2.380000,2.640000,2.840000,2.350000,1888867
2018-05-25T04:00:00Z,2.300000,2.270000,2.300000,2.120000,519015
2018-06-01T04:00:00Z,2.560000,2.470000,2.580000,2.430000,415879
2018-06-07T04:00:00Z,2.490000,2.450000,2.520000,2.410000,279062
2018-06-13T04:00:00Z,2.390000,2.400000,2.450000,2.360000,401697
2018-06-19T04:00:00Z,2.340000,2.380000,2.410000,2.270000,239488
2018-06-25T04:00:00Z,2.360000,2.400000,2.430000,2.320100,165693
2018-06-29T04:00:00Z,2.770000,2.770000,2.830000,2.690000,641578
2018-07-06T04:00:00Z,2.940000,2.940000,2.950000,2.860000,503533
2018-07-12T04:00:00Z,3.890000,3.760000,3.890000,3.660000,1408573
2018-07-18T04:00:00Z,3.520000,3.590000,3.647700,3.370000,999077
2018-07-24T04:00:00Z,3.370000,3.370000,3.530000,3.370000,684979
2018-07-30T04:00:00Z,3.180000,3.130000,3.230000,3.110000,359477
2018-08-03T04:00:00Z,3.170000,3.220000,3.270000,3.160000,581276
2018-08-09T04:00:00Z,3.210000,3.210000,3.240000,3.130000,209262
2018-08-15T04:00:00Z,3.110000,2.930000,3.120000,2.830000,731248
2018-08-21T04:00:00Z,3.380000,3.470000,3.580000,3.310000,575477
2018-08-27T04:00:00Z,3.490000,3.465000,3.530000,3.420000,231808
2018-08-31T04:00:00Z,3.360000,3.360000,3.390000,3.310000,142985
2018-09-07T04:00:00Z,3.190000,3.210000,3.240000,3.160000,119194
2018-09-13T04:00:00Z,3.560000,3.570000,3.700000,3.540000,237828
2018-09-19T04:00:00Z,3.400000,3.390000,3.410000,3.350000,184086
2018-09-25T04:00:00Z,3.510000,3.440000,3.699900,3.410000,703328
2018-10-01T04:00:00Z,3.350000,3.520000,3.570000,3.350000,466184
2018-10-05T04:00:00Z,3.310000,3.320000,3.360000,3.107500,1167928
2018-10-11T04:00:00Z,3.140000,3.000000,3.210000,2.990000,497805
2018-10-17T04:00:00Z,3.110000,3.090000,3.130000,3.010000,230143
2018-10-23T04:00:00Z,2.520000,2.030000,2.600000,2.020000,2656508
2018-10-29T04:00:00Z,2.460000,2.310000,2.485000,2.270000,321060
2018-11-02T04:00:00Z,2.460000,2.360000,2.480000,2.310000,217971
2018-11-08T05:00:00Z,2.300000,2.220000,2.370000,2.140000,358571
2018-11-14T05:00:00Z,2.410000,2.150000,2.420000,2.120000,243351
2018-11-20T05:00:00Z,2.260000,2.140000,2.300000,2.080000,271729
2018-11-27T05:00:00Z,2.140000,2.010000,2.170000,1.970000,248142
2018-12-03T05:00:00Z,2.170000,2.180000,2.230000,2.150000,139522
2018-12-10T05:00:00Z,1.980000,1.810000,1.980000,1.795400,350949
2018-12-14T05:00:00Z,1.850000,1.780000,1.877300,1.770000,77116
2018-12-20T05:00:00Z,1.660000,1.620000,1.660000,1.549900,302601
2018-12-27T05:00:00Z,1.620000,1.680000,1.680000,1.580000,116338
2019-01-03T05:00:00Z,1.850000,1.890000,1.890000,1.760000,73237
2019-01-09T05:00:00Z,2.060000,2.090000,2.110000,2.030000,135859
2019-01-15T05:00:00Z,1.960000,1.960000,2.010000,1.940000,55244
2019-01-22T05:00:00Z,1.800000,1.760000,1.885800,1.750000,97054
2019-01-28T05:00:00Z,1.840000,1.790000,1.849200,1.770000,16799
2019-02-01T05:00:00Z,1.820000,1.930000,1.990000,1.820000,101705
2019-02-07T05:00:00Z,1.929100,1.870000,1.940000,1.828800,23427
2019-02-13T05:00:00Z,1.930000,1.980000,1.999900,1.930000,90024
2019-02-20T05:00:00Z,2.140000,2.010000,2.185000,1.965000,96727
2019-02-26T05:00:00Z,2.030000,1.980000,2.062900,1.960000,69955
2019-03-04T05:00:00Z,2.000000,1.980000,2.040000,1.980000,74370
2019-03-08T05:00:00Z,2.020000,2.020000,2.060000,1.980000,59004
2019-03-14T04:00:00Z,2.100000,2.080000,2.190000,2.030000,106073
2019-03-20T04:00:00Z,2.180000,2.140000,2.180000,2.120000,155915
2019-03-26T04:00:00Z,1.870000,1.750000,1.900000,1.720000,448275
2019-04-01T04:00:00Z,1.930000,1.860000,1.939900,1.820000,216757
2019-04-05T04:00:00Z,1.790000,1.840000,1.860000,1.770000,88358
2019-04-11T04:00:00Z,1.880000,1.880000,1.970000,1.860000,88099
2019-04-17T04:00:00Z,1.830000,1.860000,1.870000,1.830000,58421
2019-04-24T04:00:00Z,1.950000,1.920000,1.970000,1.890000,158850
2019-04-30T04:00:00Z,1.950000,1.950000,1.970000,1.920000,58159
2019-05-06T04:00:00Z,1.880000,1.870000,1.880000,1.849100,148526
2019-05-10T04:00:00Z,1.800000,1.780000,1.830000,1.779900,103545
2019-05-16T04:00:00Z,1.760000,1.760000,1.790000,1.750000,70216
2019-05-22T04:00:00Z,1.660000,1.600000,1.690000,1.600000,102432
2019-05-29T04:00:00Z,1.520000,1.510000,1.560000,1.500000,98125
2019-06-04T04:00:00Z,1.530000,1.540000,1.550000,1.490000,64752
2019-06-10T04:00:00Z,1.540000,1.490000,1.559100,1.470000,195468
2019-06-14T04:00:00Z,1.470000,1.400000,1.470000,1.380000,122096
2019-06-20T04:00:00Z,1.420000,1.450000,1.470000,1.410000,250860
2019-06-26T04:00:00Z,1.410000,1.420000,1.450000,1.370000,220041
2019-07-02T04:00:00Z,1.440000,1.360000,1.440000,1.350000,86327
2019-07-09T04:00:00Z,1.350000,1.370000,1.380000,1.340000,101651
2019-07-15T04:00:00Z,1.470000,1.480000,1.500000,1.460000,75345
2019-07-19T04:00:00Z,1.430000,1.450000,1.460000,1.420000,102566
2019-07-25T04:00:00Z,1.470000,1.410000,1.470000,1.410000,44812
2019-07-31T04:00:00Z,1.490000,1.550000,1.553100,1.465000,195386
2019-08-06T04:00:00Z,1.450000,1.430000,1.460000,1.420000,201502
2019-08-12T04:00:00Z,1.420000,1.480000,1.480000,1.400000,124176
2019-08-16T04:00:00Z,1.450000,1.470000,1.490000,1.400000,107665
2019-08-22T04:00:00Z,1.450000,1.430000,1.450000,1.420000,38045
2019-08-28T04:00:00Z,1.340000,1.350000,1.360000,1.335000,99917
2019-09-04T04:00:00Z,1.350000,1.350000,1.370000,1.330000,261866
2019-09-10T04:00:00Z,1.460000,1.485000,1.500000,1.440000,260699
2019-09-16T04:00:00Z,1.500000,1.520000,1.600000,1.490000,382457
2019-09-20T04:00:00Z,1.480000,1.430000,1.480000,1.400000,216438
2019-09-26T04:00:00Z,1.370000,1.360000,1.370000,1.340000,169801
2019-10-02T04:00:00Z,1.310000,1.280000,1.315000,1.260000,233329
2019-10-08T04:00:00Z,1.350000,1.310000,1.350000,1.290000,91703
2019-10-14T04:00:00Z,1.290000,1.300000,1.300000,1.280000,35702
2019-10-18T04:00:00Z,1.270000,1.250000,1.290000,1.240000,110842
2019-10-24T04:00:00Z,1.240000,1.230000,1.270000,1.220000,123739
2019-10-30T04:00:00Z,1.180000,1.170000,1.190000,1.160000,80614
2019-11-05T05:00:00Z,1.240000,1.260000,1.280000,1.230000,110904
2019-11-11T05:00:00Z,1.220000,1.220000,1.230000,1.200000,76709
2019-11-15T05:00:00Z,1.170000,1.180000,1.190000,1.170000,123438
2019-11-21T05:00:00Z,1.150000,1.140000,1.170000,1.140000,103496
2019-11-27T05:00:00Z,1.160000,1.140000,1.170000,1.140000,77077
2019-12-04T05:00:00Z,1.130000,1.135000,1.150000,1.110000,220913
2019-12-10T05:00:00Z,1.190000,1.190000,1.198900,1.160000,99420
2019-12-16T05:00:00Z,1.270000,1.280000,1.320000,1.260000,179353
2019-12-20T05:00:00Z,1.360000,1.450000,1.455000,1.360000,409817
2019-12-27T05:00:00Z,1.430000,1.430000,1.470000,1.430000,134394
2020-01-03T05:00:00Z,1.490000,1.450000,1.500000,1.417700,257440